Folder: ELO-inclusion-detection/images/SEM_EDX_20220411/W04_Detail5

Note: README.md
# ELO-inclusion-detection
Code and data related to my article: XYZ

Page still in progress...

File: W04_Detail5_line_scans.csv
Abstand (µm),Decimals,Al Kα1,Ti Kα1,Nb Lα1,Ta Lα1,
0,0,100,235,26,8,
0,206470642383852,110,227,20,11,
0,412941284767705,100,237,15,6,
0,619411927151558,97,218,21,3,
0,82588256953541,104,242,20,1,
1,03235321191926,102,215,20,5,
1,23882385430312,95,227,14,6,
1,44529449668697,115,238,13,9,
1,65176513907082,106,257,20,12,
1,85823578145467,97,261,19,13,
2,06470642383852,101,229,12,10,
2,27117706622238,101,250,19,7,
2,47764770860623,113,218,10,9,
2,68411835099008,93,235,17,11,
2,89058899337394,109,246,28,8,
3,09705963575779,101,240,16,9,
3,30353027814164,115,247,17,10,
3,51000092052549,96,259,25,8,
3,71647156290935,102,231,21,7,
3,9229422052932,96,235,17,6,
4,12941284767705,96,245,16,10,
4,3358834900609,94,243,18,13,
4,54235413244476,123,250,20,9,
4,74882477482861,104,240,26,9,
4,95529541721246,95,248,24,7,
5,16176605959631,98,229,16,6,
5,36823670198017,119,227,19,8,
5,57470734436402,106,241,15,12,
5,78117798674787,116,233,20,3,
5,98764862913172,109,241,20,7,
6,19411927151558,125,210,17,10,
6,40058991389943,107,241,26,5,
6,60706055628328,114,226,21,10,
6,81353119866713,127,229,19,17,
7,02000184105099,125,245,21,16,
7,22647248343484,118,219,16,5,
7,43294312581869,127,223,14,8,
7,63941376820255,98,229,20,12,
7,8458844105864,126,232,21,12,
8,05235505297025,96,217,20,9,
8,2588256953541,95,219,16,7,
8,46529633773796,96,255,18,13,
8,67176698012181,108,223,14,5,
8,87823762250566,108,230,27,10,
9,08470826488951,91,248,17,6,
9,29117890727336,111,243,20,4,
9,49764954965722,107,228,15,6,
9,70412019204107,119,261,16,12,
9,91059083442492,110,224,10,13,
10,1170614768088,108,220,26,4,
10,3235321191926,97,225,11,13,
10,5300027615765,107,245,17,12,
10,7364734039603,109,245,26,9,
10,9429440463442,121,230,18,7,
11,149414688728,116,243,22,10,
11,3558853311119,108,231,23,11,
11,5623559734957,112,212,12,7,
11,7688266158796,105,213,20,8,
11,9752972582634,134,231,21,7,
12,1817679006473,111,230,12,6,
12,3882385430312,97,250,16,11,
12,594709185415,114,245,19,5,
12,8011798277989,118,255,16,12,
13,0076504701827,105,208,18,9,
13,2141211125666,120,218,14,9,
13,4205917549504,101,251,18,9,
13,6270623973343,96,239,23,6,
13,8335330397181,94,224,19,8,
14,040003682102,94,237,13,8,
14,2464743244858,96,222,16,11,
14,4529449668697,88,241,19,10,
14,6594156092535,106,271,19,13,
14,8658862516374,102,220,19,12,
15,0723568940212,100,240,8,9,
15,2788275364051,104,196,15,10,
15,4852981787889,106,237,26,11,
15,6917688211728,123,221,19,10,
15,8982394635566,120,241,10,18,
16,1047101059405,97,237,13,19,
16,3111807483244,106,239,17,15,
16,5176513907082,111,225,21,14,
16,7241220330921,99,210,28,7,
16,9305926754759,99,216,15,15,
17,1370633178598,111,224,11,16,
17,3435339602436,109,230,26,11,
17,5500046026275,97,228,21,7,
17,7564752450113,105,232,17,12,
17,9629458873952,101,227,13,19,
18,169416529779,94,216,17,16,
18,3758871721629,120,221,16,14,
18,5823578145467,113,215,23,16,
18,7888284569306,93,244,10,15,
18,9952990993144,92,227,12,20,
19,2017697416983,95,249,19,10,
19,4082403840821,113,227,23,14,
19,614711026466,114,210,19,18,
19,8211816688498,111,214,19,15,
20,0276523112337,116,233,16,20,
20,2341229536176,118,222,22,14,
20,4405935960014,100,206,11,16,
20,6470642383853,112,251,21,23,
20,8535348807691,113,226,27,13,
21,060005523153,100,176,13,16,
21,2664761655368,100,210,20,13,
21,4729468079207,98,214,15,18,
21,6794174503045,100,202,17,12,
21,8858880926884,97,218,18,16,
22,0923587350722,92,230,22,14,
22,2988293774561,81,195,10,17,
22,5053000198399,103,232,12,15,
22,7117706622238,70,208,11,18,
22,9182413046076,96,212,14,18,
23,1247119469915,109,204,17,13,
23,3311825893753,87,207,15,19,
23,5376532317592,85,199,16,23,
23,744123874143,101,205,12,22,
23,9505945165269,111,200,19,21,
24,1570651589108,116,233,16,22,
24,3635358012946,106,197,11,16,
24,5700064436785,93,210,10,25,
24,7764770860623,124,192,12,14,
24,9829477284462,118,196,20,17,
25,18941837083,115,187,8,10,
25,3958890132139,89,196,8,14,
25,6023596555977,95,207,17,20,
25,8088302979816,121,210,18,23,
26,0153009403654,136,198,16,18,
26,2217715827493,102,209,23,18,
26,4282422251331,129,208,15,17,
26,634712867517,109,190,20,24,
26,8411835099008,110,209,20,28,
27,0476541522847,108,207,11,22,
27,2541247946685,114,219,12,24,
27,4605954370524,115,214,22,23,
27,6670660794362,115,196,15,21,
27,8735367218201,117,189,20,20,
28,0800073642039,122,225,25,29,
28,2864780065878,118,215,21,17,
28,4929486489716,126,242,15,21,
28,6994192913555,122,222,18,28,
28,9058899337394,124,242,18,22,
29,1123605761232,123,228,24,12,
29,3188312185071,119,184,28,16,
29,5253018608909,114,246,24,7,
29,7317725032748,131,207,29,13,
29,9382431456586,119,229,18,16,
30,1447137880425,137,219,29,16,
30,3511844304263,150,264,25,11,
30,5576550728102,121,222,26,15,
30,764125715194,133,227,20,13,
30,9705963575779,146,238,23,11,
31,1770669999617,120,237,14,16,
31,3835376423456,135,222,22,14,
31,5900082847294,136,222,21,13,
31,7964789271133,150,252,24,13,
32,0029495694971,142,245,15,15,
32,209420211881,147,243,23,11,
32,4158908542649,125,244,26,15,
32,6223614966487,136,238,20,10,
32,8288321390325,122,240,18,7,
33,0353027814164,127,245,21,12,
33,2417734238003,118,263,21,8,
33,4482440661841,127,242,17,4,
33,654714708568,118,241,22,15,
33,8611853509518,105,251,23,10,
34,0676559933357,128,253,19,14,
34,2741266357195,125,271,29,10,
34,4805972781034,134,246,29,8,
34,6870679204872,128,228,20,9,
34,8935385628711,128,240,16,4,
35,1000092052549,116,248,15,3,
35,3064798476388,122,223,29,4,
35,5129504900226,133,245,30,5,
35,7194211324065,134,239,20,13,
35,9258917747904,121,257,24,7,
36,1323624171742,124,278,20,4,
36,338833059558,141,269,19,7,
36,5453037019419,135,251,19,6,
36,7517743443258,119,239,17,7,
36,9582449867096,149,243,16,4,
37,1647156290935,135,234,21,4,
37,3711862714773,122,244,30,9,
37,5776569138612,133,229,21,5,
37,784127556245,142,255,19,5,
37,9905981986289,135,233,15,10,
38,1970688410127,125,260,15,5,
38,4035394833966,126,232,21,5,
38,6100101257804,135,237,19,7,
38,8164807681643,119,259,21,1,
39,0229514105481,130,233,16,4,
39,229422052932,117,269,21,6,
39,4358926953159,134,256,17,2,
39,6423633376997,111,250,19,11,
39,8488339800835,123,246,27,4,
40,0553046224674,123,225,24,8,
40,2617752648513,108,244,18,11,
40,4682459072351,132,263,13,5,
40,6747165496189,111,254,16,6,
40,8811871920028,135,239,24,11,
41,0876578343867,125,259,12,11,
41,2941284767705,126,270,20,6,
41,5005991191544,114,251,18,12,
41,7070697615382,138,241,26,8,
41,9135404039221,140,219,22,7,
42,1200110463059,108,256,16,6,
42,3264816886898,112,231,19,2,
42,5329523310736,121,257,17,5,
42,7394229734575,129,256,13,4,
42,9458936158413,121,248,20,8,
43,1523642582252,116,246,19,6,
43,358834900609,118,218,21,7,
43,5653055429929,104,246,23,3,
43,7717761853767,120,228,25,4,
43,9782468277606,111,235,20,7,
44,1847174701444,108,254,18,8,
44,3911881125283,120,227,22,9,
44,5976587549122,131,264,21,8,
44,804129397296,114,219,20,11,
45,0106000396799,120,248,27,4,
45,2170706820637,104,251,20,11,
45,4235413244476,106,243,19,7,
45,6300119668314,125,267,24,4,
45,8364826092153,116,236,28,4,
46,0429532515991,87,233,10,8,
46,249423893983,109,239,22,8,
46,4558945363668,115,255,18,9,
46,6623651787507,114,228,24,5,
46,8688358211345,117,233,18,3,
47,0753064635184,126,258,20,11,
47,2817771059022,129,213,22,6,
47,4882477482861,137,232,19,10,
47,6947183906699,128,219,29,5,
47,9011890330538,139,252,20,6,
48,1076596754376,124,255,26,4,
48,3141303178215,129,240,17,12,
48,5206009602054,122,272,17,5,
48,7270716025892,116,271,20,3,
48,9335422449731,133,266,27,10,
49,1400128873569,133,232,22,4,
49,3464835297408,131,241,15,8,
49,5529541721246,130,232,30,5,
49,7594248145085,140,242,14,11,
49,9658954568923,122,229,23,9,
50,1723660992762,144,244,23,6,
50,37883674166,137,224,10,1,
50,5853073840439,121,259,16,4,
50,7917780264277,127,241,18,14,
50,9982486688116,124,245,22,4,
51,2047193111954,106,262,25,5,
51,4111899535793,116,254,22,7,
51,5144252747712,109,221,15,5,