Folder: ELO-inclusion-detection/images/SEM_EDX_20220411/W04_Detail4

Note: README.md
# ELO-inclusion-detection
Code and data related to my article: XYZ

Page still in progress...

File: W04_Detail4_line_scan.csv
Abstand (µm),Decimals,Al Kα1,Ti Kα1,Nb Lα1,Ta Lα1,
0,0,274,410,38,11,
0,139526100850632,255,433,36,23,
0,279052201701265,261,442,56,17,
0,418578302551897,255,452,43,11,
0,558104403402529,247,470,36,17,
0,697630504253161,237,411,37,17,
0,837156605103794,248,455,37,13,
0,976682705954426,259,438,43,15,
1,11620880680506,224,446,46,15,
1,25573490765569,267,468,42,17,
1,39526100850632,251,457,38,20,
1,53478710935696,279,427,36,16,
1,67431321020759,239,420,46,16,
1,81383931105822,242,451,41,15,
1,95336541190885,231,425,32,17,
2,09289151275948,259,443,39,11,
2,23241761361012,253,421,43,15,
2,37194371446075,240,479,43,16,
2,51146981531138,241,430,42,23,
2,65099591616201,229,490,37,7,
2,79052201701265,230,449,47,13,
2,93004811786328,236,453,35,20,
3,06957421871391,236,452,35,21,
3,20910031956454,226,440,41,22,
3,34862642041518,236,426,44,16,
3,48815252126581,220,428,41,17,
3,62767862211644,242,424,43,14,
3,76720472296707,234,424,35,21,
3,9067308238177,263,439,36,20,
4,04625692466834,231,424,36,14,
4,18578302551897,255,413,37,15,
4,3253091263696,209,471,31,19,
4,46483522722024,256,456,43,12,
4,60436132807087,227,464,34,14,
4,7438874289215,205,468,36,20,
4,88341352977213,215,423,35,15,
5,02293963062276,221,415,38,19,
5,1624657314734,245,457,40,18,
5,30199183232403,231,439,37,21,
5,44151793317466,198,446,42,22,
5,58104403402529,229,435,34,26,
5,72057013487593,217,449,37,12,
5,86009623572656,226,433,43,14,
5,99962233657719,220,423,38,24,
6,13914843742782,231,443,52,15,
6,27867453827845,219,440,44,19,
6,41820063912909,226,437,38,20,
6,55772673997972,218,414,32,27,
6,69725284083035,217,398,38,21,
6,83677894168098,221,438,35,19,
6,97630504253162,217,428,32,21,
7,11583114338225,252,435,32,21,
7,25535724423288,234,412,32,20,
7,39488334508351,225,392,35,25,
7,53440944593414,231,431,43,22,
7,67393554678478,250,433,34,30,
7,81346164763541,221,395,41,28,
7,95298774848604,238,417,37,31,
8,09251384933667,227,440,41,23,
8,23203995018731,242,421,29,32,
8,37156605103794,233,442,31,32,
8,51109215188857,229,405,33,25,
8,6506182527392,242,397,31,31,
8,79014435358983,228,409,38,28,
8,92967045444047,225,444,44,22,
9,0691965552911,220,417,43,27,
9,20872265614173,254,426,43,22,
9,34824875699236,221,427,40,24,
9,487774857843,246,431,36,28,
9,62730095869363,233,374,34,26,
9,76682705954426,240,425,34,24,
9,90635316039489,227,401,35,19,
10,0458792612455,209,350,37,22,
10,1854053620962,225,411,36,32,
10,3249314629468,242,399,35,24,
10,4644575637974,214,438,36,28,
10,6039836646481,249,418,45,23,
10,7435097654987,225,427,41,31,
10,8830358663493,241,399,33,25,
11,0225619671999,235,384,36,23,
11,1620880680506,237,441,39,22,
11,3016141689012,228,424,30,32,
11,4411402697519,237,426,42,23,
11,5806663706025,244,456,37,34,
11,7201924714531,272,423,49,26,
11,8597185723037,254,421,38,18,
11,9992446731544,242,450,36,18,
12,138770774005,248,415,39,23,
12,2782968748556,220,429,29,20,
12,4178229757063,270,435,40,16,
12,5573490765569,247,420,34,22,
12,6968751774075,235,443,41,19,
12,8364012782582,225,411,36,21,
12,9759273791088,252,425,43,21,
13,1154534799594,270,415,36,20,
13,2549795808101,247,422,41,17,
13,3945056816607,273,441,32,23,
13,5340317825113,269,453,41,23,
13,673557883362,278,438,40,25,
13,8130839842126,234,420,35,20,
13,9526100850632,263,407,33,18,
14,0921361859139,242,438,33,21,
14,2316622867645,233,429,48,25,
14,3711883876151,225,438,29,13,
14,5107144884658,266,432,29,18,
14,6502405893164,229,436,38,15,
14,789766690167,250,448,35,16,
14,9292927910177,234,442,39,23,
15,0688188918683,269,440,36,19,
15,2083449927189,251,447,35,22,
15,3478710935696,244,449,29,21,
15,4873971944202,229,422,41,18,
15,6269232952708,230,411,29,16,
15,7664493961215,249,436,38,22,
15,9059754969721,234,452,30,21,
16,0455015978227,224,435,29,22,
16,1850276986733,250,431,32,24,
16,324553799524,232,420,36,13,
16,4640799003746,230,427,28,15,
16,6036060012252,229,481,29,15,
16,7431321020759,238,429,25,15,
16,8826582029265,244,447,40,15,
17,0221843037771,245,414,35,18,
17,1617104046278,231,476,35,13,
17,3012365054784,220,449,25,20,
17,440762606329,221,421,28,28,
17,5802887071797,247,464,33,15,
17,7198148080303,231,467,35,25,
17,8593409088809,232,431,32,25,
17,9988670097316,209,473,34,21,
18,1383931105822,235,431,25,25,
18,2779192114328,209,451,35,18,
18,4174453122835,207,437,20,18,
18,5569714131341,216,416,39,27,
18,6964975139847,222,422,40,17,
18,8360236148354,220,419,43,22,
18,975549715686,231,420,37,28,
19,1150758165366,245,438,41,25,
19,2546019173873,225,412,38,21,
19,3941280182379,198,427,40,23,
19,5336541190885,231,434,38,19,
19,6731802199392,231,403,35,25,
19,8127063207898,237,431,36,15,
19,9522324216404,229,379,46,22,
20,091758522491,228,371,30,27,
20,2312846233417,217,420,54,21,
20,3708107241923,197,417,34,25,
20,5103368250429,234,401,34,22,
20,6498629258936,231,423,27,16,
20,7893890267442,228,417,32,32,
20,9289151275948,215,416,45,20,
21,0684412284455,224,419,48,21,
21,2079673292961,219,401,28,17,
21,3474934301467,242,403,23,27,
21,4870195309974,230,411,35,31,
21,626545631848,230,429,30,26,
21,7660717326986,261,420,31,24,
21,9055978335493,223,433,35,18,
22,0451239343999,230,440,34,32,
22,1846500352505,209,432,35,27,
22,3241761361012,224,422,40,26,
22,4637022369518,225,446,34,13,
22,6032283378024,240,424,31,22,
22,7427544386531,210,436,31,27,
22,8822805395037,227,413,34,27,
23,0218066403543,233,404,40,22,
23,161332741205,246,430,36,28,
23,3008588420556,249,407,31,24,
23,4403849429062,232,429,37,22,
23,5799110437569,243,457,32,26,
23,7194371446075,221,453,34,23,
23,8589632454581,217,411,37,27,
23,9984893463088,212,439,29,23,
24,1380154471594,213,411,32,28,
24,27754154801,202,430,33,17,
24,4170676488607,228,437,38,26,
24,5565937497113,228,422,44,25,
24,6961198505619,220,446,31,24,
24,8356459514126,238,446,43,23,
24,9751720522632,210,421,43,14,
25,1146981531138,214,429,43,18,
25,2542242539644,223,405,36,25,
25,3937503548151,232,400,24,25,
25,5332764556657,237,439,38,23,
25,6728025565163,199,432,31,17,
25,812328657367,231,445,32,31,
25,9518547582176,229,422,31,19,
26,0913808590682,223,420,32,23,
26,2309069599189,233,425,30,29,
26,3704330607695,231,429,28,19,
26,5099591616201,228,432,29,24,
26,6494852624708,234,391,34,28,
26,7890113633214,237,406,20,36,
26,928537464172,209,414,29,18,
27,0680635650227,217,394,34,22,
27,2075896658733,220,405,40,24,
27,3471157667239,225,395,30,23,
27,4866418675746,206,450,42,21,
27,6261679684252,208,445,41,14,
27,7656940692758,221,399,51,23,
27,9052201701265,207,410,34,18,
28,0447462709771,203,428,35,24,
28,1842723718277,216,405,32,18,
28,3237984726784,206,442,32,22,
28,463324573529,204,431,34,15,
28,6028506743796,187,430,31,23,
28,7423767752303,183,439,32,19,
28,8819028760809,195,444,28,21,
29,0214289769315,188,439,33,18,
29,1609550777821,164,420,35,17,
29,3004811786328,184,403,25,15,
29,4400072794834,198,420,40,12,
29,579533380334,203,408,29,15,
29,7190594811847,208,425,31,11,
29,8585855820353,215,469,38,12,
29,9981116828859,187,475,35,18,
30,1376377837366,209,446,28,12,
30,2771638845872,198,454,41,14,
30,4166899854378,211,409,41,17,
30,5562160862885,198,427,37,7,
30,6957421871391,204,441,33,12,
30,8352682879897,206,436,28,19,
30,9747943888404,225,473,39,11,
31,114320489691,225,432,34,10,
31,2538465905416,231,433,37,14,
31,3933726913923,221,424,35,17,
31,5328987922429,213,435,34,19,
31,6724248930935,212,410,31,10,
31,8119509939442,209,441,34,11,
31,9514770947948,183,429,26,5,
32,0910031956454,215,459,30,10,
32,2305292964961,234,448,46,15,
32,3700553973467,245,444,31,9,
32,5095814981973,221,423,38,15,
32,649107599048,193,442,23,12,
32,7886336998986,199,416,32,7,
32,9281598007492,195,434,36,11,
33,0676859015999,226,418,33,10,
33,2072120024505,199,472,28,12,
33,3467381033011,213,453,35,9,
33,4862642041518,189,440,36,14,
33,6257903050024,228,461,34,9,
33,765316405853,205,451,29,13,
33,9048425067037,200,394,25,11,
34,0443686075543,217,433,27,11,
34,1838947084049,237,430,38,11,
34,3234208092555,211,450,30,9,
34,4629469101062,216,455,41,15,
34,6024730109568,202,438,32,8,
34,7419991118074,199,438,31,5,
34,8117621622328,232,466,23,8,