Folder: ELO-inclusion-detection/images/SEM_EDX_20220411/W04_Detail3

Note: README.md
# ELO-inclusion-detection
Code and data related to my article: XYZ

Page still in progress...

File: W04_Detail3_Line_scan.csv
Abstand (µm),Decimals,Ti Kα1,Al Kα1,Ta Lα1,Nb Lα1,
0,0,421,193,8,39,
0,235796833794235,441,158,14,34,
0,47159366758847,451,185,10,37,
0,707390501382704,433,201,15,22,
0,943187335176939,423,195,4,38,
1,17898416897117,451,180,11,37,
1,41478100276541,417,202,9,33,
1,65057783655964,434,195,11,35,
1,88637467035388,426,182,7,27,
2,12217150414811,466,186,9,33,
2,35796833794235,443,189,13,27,
2,59376517173658,476,182,8,42,
2,82956200553082,436,225,11,46,
3,06535883932505,462,204,11,30,
3,30115567311929,440,186,14,45,
3,53695250691352,476,202,10,35,
3,77274934070776,413,232,12,28,
4,00854617450199,433,208,12,34,
4,24434300829623,451,215,8,31,
4,48013984209046,440,202,6,32,
4,7159366758847,421,222,13,35,
4,95173350967893,445,205,13,45,
5,18753034347317,441,200,10,37,
5,4233271772674,449,211,13,28,
5,65912401106164,453,181,15,39,
5,89492084485587,417,231,12,44,
6,1307176786501,448,235,10,38,
6,36651451244434,444,172,14,35,
6,60231134623858,467,205,7,33,
6,83810818003281,444,209,11,38,
7,07390501382705,429,179,10,30,
7,30970184762128,435,220,11,29,
7,54549868141551,443,182,15,24,
7,78129551520975,428,176,8,32,
8,01709234900398,439,193,12,37,
8,25288918279822,457,191,8,36,
8,48868601659245,477,170,11,30,
8,72448285038669,406,177,7,35,
8,96027968418093,444,155,10,21,
9,19607651797516,405,146,6,25,
9,4318733517694,407,154,9,29,
9,66767018556363,394,148,8,20,
9,90346701935787,446,154,8,25,
10,1392638531521,432,171,12,30,
10,3750606869463,440,165,13,26,
10,6108575207406,437,152,13,25,
10,8466543545348,448,155,6,34,
11,082451188329,408,148,13,38,
11,3182480221233,398,146,6,26,
11,5540448559175,421,147,6,35,
11,7898416897117,423,142,7,33,
12,025638523506,392,149,11,30,
12,2614353573002,426,156,15,27,
12,4972321910944,426,177,10,27,
12,7330290248887,409,154,13,31,
12,9688258586829,440,192,9,31,
13,2046226924772,395,170,7,23,
13,4404195262714,411,164,15,23,
13,6762163600656,428,167,18,29,
13,9120131938599,396,182,10,39,
14,1478100276541,463,160,19,39,
14,3836068614483,416,183,13,34,
14,6194036952426,409,175,18,33,
14,8552005290368,389,176,13,39,
15,090997362831,413,157,16,25,
15,3267941966253,406,139,16,24,
15,5625910304195,411,142,21,41,
15,7983878642137,398,153,23,18,
16,034184698008,417,175,15,30,
16,2699815318022,386,174,11,35,
16,5057783655964,402,158,16,17,
16,7415751993907,395,159,22,25,
16,9773720331849,417,171,16,21,
17,2131688669791,396,171,25,20,
17,4489657007734,407,167,19,31,
17,6847625345676,373,161,22,35,
17,9205593683618,408,156,29,27,
18,1563562021561,364,171,20,25,
18,3921530359503,401,128,21,31,
18,6279498697446,368,135,23,23,
18,8637467035388,388,123,25,32,
19,099543537333,398,150,26,30,
19,3353403711273,385,131,30,21,
19,5711372049215,399,163,20,28,
19,8069340387157,363,148,30,20,
20,04273087251,395,175,28,30,
20,2785277063042,364,156,22,30,
20,5143245400984,409,157,30,26,
20,7501213738927,363,150,41,30,
20,9859182076869,363,159,34,32,
21,2217150414811,382,142,27,28,
21,4575118752754,376,179,23,24,
21,6933087090696,329,142,30,31,
21,9291055428638,377,167,30,27,
22,1649023766581,383,164,44,28,
22,4006992104523,349,166,25,30,
22,6364960442465,373,167,32,30,
22,8722928780408,378,171,26,26,
23,108089711835,328,173,33,27,
23,3438865456292,366,160,47,28,
23,5796833794235,373,165,35,21,
23,8154802132177,386,152,31,33,
24,051277047012,381,165,40,26,
24,2870738808062,365,153,43,32,
24,5228707146004,348,152,39,24,
24,7586675483947,348,176,26,21,
24,9944643821889,377,135,36,25,
25,2302612159831,386,169,42,25,
25,4660580497774,349,167,42,21,
25,7018548835716,334,171,47,33,
25,9376517173658,376,183,38,20,
26,1734485511601,383,159,36,32,
26,4092453849543,399,175,42,26,
26,6450422187485,353,179,38,35,
26,8808390525428,414,154,45,33,
27,116635886337,361,191,55,35,
27,3524327201312,321,212,39,23,
27,5882295539255,368,214,41,34,
27,8240263877197,394,199,41,33,
28,0598232215139,383,204,30,34,
28,2956200553082,408,183,36,29,
28,5314168891024,382,167,35,28,
28,7672137228967,399,191,38,37,
29,0030105566909,337,219,54,30,
29,2388073904851,361,214,53,39,
29,4746042242794,401,223,42,28,
29,7104010580736,443,204,43,33,
29,9461978918678,399,199,38,43,
30,1819947256621,387,242,34,37,
30,4177915594563,384,214,28,40,
30,6535883932505,406,233,34,27,
30,8893852270448,411,236,28,33,
31,125182060839,380,233,32,33,
31,3609788946332,426,224,27,34,
31,5967757284275,416,231,31,39,
31,8325725622217,450,235,29,39,
32,0683693960159,416,216,32,38,
32,3041662298102,440,225,35,43,
32,5399630636044,405,222,21,37,
32,7757598973986,406,242,24,32,
33,0115567311929,408,236,31,42,
33,2473535649871,448,226,25,34,
33,4831503987814,426,216,31,26,
33,7189472325756,433,234,21,35,
33,9547440663698,465,191,22,32,
34,1905409001641,420,202,28,25,
34,4263377339583,404,214,28,42,
34,6621345677525,428,194,20,42,
34,8979314015468,400,206,24,34,
35,133728235341,421,222,26,31,
35,3695250691352,413,224,33,44,
35,6053219029295,420,234,26,48,
35,8411187367237,424,234,22,42,
36,0769155705179,407,275,20,42,
36,3127124043122,441,276,29,50,
36,5485092381064,439,246,29,35,
36,7843060719006,440,278,21,50,
37,0201029056949,445,265,18,43,
37,2558997394891,451,282,25,44,
37,4916965732833,435,277,25,45,
37,7274934070776,431,256,22,40,
37,9632902408718,433,220,18,42,
38,1990870746661,412,279,18,41,
38,4348839084603,428,268,21,39,
38,6706807422545,477,263,16,41,
38,9064775760488,460,263,22,48,
39,142274409843,451,241,18,47,
39,3780712436372,394,247,15,40,
39,6138680774315,434,244,16,39,
39,8496649112257,458,279,25,35,
40,0854617450199,457,245,18,45,
40,3212585788142,468,229,18,48,
40,5570554126084,436,230,13,34,
40,7928522464026,465,244,9,29,
41,0286490801969,445,257,17,48,
41,2644459139911,508,243,21,39,
41,5002427477853,456,262,11,34,
41,7360395815796,483,267,15,44,
41,9718364153738,472,258,11,45,
42,207633249168,453,253,12,33,
42,4434300829623,487,264,17,45,
42,6792269167565,436,229,22,40,
42,9150237505507,467,268,10,46,
43,150820584345,487,232,17,51,
43,3866174181392,464,252,13,38,
43,6224142519334,471,274,16,50,
43,8582110857277,468,267,20,48,
44,0940079195219,428,248,16,36,
44,3298047533162,468,247,10,48,
44,5656015871104,490,259,9,44,
44,8013984209046,481,242,17,41,
45,0371952546989,466,275,17,30,
45,2729920884931,420,233,12,54,
45,5087889222873,467,244,7,32,
45,7445857560816,444,239,16,45,
45,9803825898758,460,225,17,50,
46,21617942367,451,229,13,38,
46,4519762574643,462,247,13,33,
46,6877730912585,475,256,19,39,
46,9235699250527,486,228,8,40,
47,159366758847,415,266,10,45,
47,3951635926412,472,269,11,47,
47,6309604264354,465,244,11,39,
47,8667572602297,456,261,9,42,
48,1025540940239,419,244,14,37,
48,3383509278181,468,248,12,44,
48,5741477616124,460,277,6,32,
48,8099445954066,447,250,12,42,
49,0457414292008,458,231,9,43,
49,2815382629951,453,219,11,37,
49,5173350967893,474,226,5,49,
49,7531319305835,484,213,11,41,
49,9889287643778,484,233,16,50,
50,224725598172,471,227,10,40,
50,4605224319663,460,230,7,42,
50,6963192657605,485,241,9,44,
50,9321160995547,461,252,10,43,
51,167912933349,460,229,19,32,
51,4037097671432,460,250,16,41,
51,6395066009374,474,245,8,45,
51,8753034347317,479,265,9,39,
52,1111002685259,487,233,12,34,
52,3468971023201,490,271,12,40,
52,5826939361144,452,238,9,43,
52,8184907699086,467,287,9,36,
53,0542876037028,450,253,7,36,
53,2900844374971,448,251,10,48,
53,5258812712913,495,224,7,36,
53,7616781050856,449,250,12,40,
53,9974749388798,465,248,13,40,
54,233271772674,443,247,15,33,
54,4690686064683,472,233,8,45,
54,7048654402625,425,232,12,36,
54,9406622740567,457,252,14,36,
55,176459107851,440,228,22,38,
55,4122559416452,488,235,12,43,
55,6480527754394,398,257,19,36,
55,8838496092337,434,191,13,32,
56,1196464430279,478,223,13,37,
56,3554432768221,467,239,10,34,
56,5912401106164,426,245,10,38,
56,8270369444106,423,241,8,37,
57,0628337782048,412,237,6,45,
57,2986306119991,461,241,9,38,
57,5344274457933,472,251,10,51,
57,7702242795875,449,245,10,49,
58,0060211133818,430,244,10,45,
58,241817947176,443,219,19,41,
58,4776147809702,438,222,15,45,
58,7134116147645,434,219,6,34,
58,8313100316616,450,222,8,28,