Folder: ELO-inclusion-detection/images/SEM_EDX_20220411/W10_Detail_1

Note: README.md
# ELO-inclusion-detection
Code and data related to my article: XYZ

Page still in progress...

File: W04_Detail_1_Line_scan.csv
Abstand (µm),Decimals, Al Kα1,Ti Kα1,Ta Lα1,Nb Lα1,Mo Lα1,
0,0,732,1272,66,102,80,
0,173300571974395,722,1261,67,117,79,
0,346601143948792,714,1329,67,110,83,
0,519901715923188,711,1296,53,101,82,
0,693202287897583,700,1379,66,107,76,
0,866502859871978,703,1374,66,128,93,
1,03980343184638,682,1363,57,119,76,
1,21310400382077,658,1372,55,128,98,
1,38640457579517,750,1396,55,110,91,
1,55970514776956,701,1386,58,140,67,
1,73300571974396,696,1353,45,128,94,
1,90630629171835,745,1452,50,126,77,
2,07960686369275,686,1372,45,134,72,
2,25290743566715,704,1446,62,104,80,
2,42620800764154,684,1354,69,123,93,
2,59950857961594,716,1404,61,115,85,
2,77280915159033,717,1378,57,110,84,
2,94610972356473,745,1336,70,120,77,
3,11941029553912,664,1305,36,128,71,
3,29271086751352,778,1373,63,132,81,
3,46601143948792,702,1417,63,101,84,
3,63931201146231,725,1379,60,111,74,
3,81261258343671,701,1346,60,126,83,
3,9859131554111,671,1344,53,127,90,
4,1592137273855,711,1342,74,104,86,
4,3325142993599,700,1304,67,133,85,
4,50581487133429,678,1242,71,109,75,
4,67911544330869,700,1317,83,118,77,
4,85241601528308,693,1314,75,115,96,
5,02571658725748,639,1254,80,130,94,
5,19901715923187,767,1272,76,118,85,
5,37231773120627,663,1255,97,122,89,
5,54561830318066,680,1234,90,117,99,
5,71891887515506,686,1194,97,130,92,
5,89221944712946,714,1201,101,104,85,
6,06552001910385,721,1258,98,105,79,
6,23882059107825,715,1231,114,108,80,
6,41212116305264,694,1232,101,88,66,
6,58542173502704,703,1235,107,106,73,
6,75872230700143,695,1232,111,107,89,
6,93202287897583,703,1184,110,107,69,
7,10532345095023,725,1226,109,119,82,
7,27862402292462,666,1186,89,101,80,
7,45192459489902,666,1193,112,99,67,
7,62522516687342,638,1177,102,98,81,
7,79852573884781,662,1230,122,107,81,
7,9718263108222,633,1212,129,96,61,
8,1451268827966,639,1244,109,92,73,
8,318427454771,623,1181,122,86,72,
8,49172802674539,648,1138,97,99,70,
8,66502859871979,634,1136,124,87,81,
8,83832917069419,651,1165,109,100,86,
9,01162974266858,621,1166,103,100,87,
9,18493031464298,668,1154,136,100,73,
9,35823088661737,611,1133,113,89,66,
9,53153145859177,650,1224,96,90,74,
9,70483203056616,668,1174,113,109,77,
9,87813260254056,670,1151,126,103,78,
10,051433174515,607,1143,131,111,81,
10,2247337464893,633,1176,120,84,66,
10,3980343184637,653,1103,108,105,73,
10,5713348904381,687,1196,114,106,82,
10,7446354624125,669,1166,112,112,65,
10,9179360343869,669,1162,115,103,66,
11,0912366063613,691,1135,108,107,70,
11,2645371783357,715,1181,98,103,65,
11,4378377503101,655,1199,105,103,72,
11,6111383222845,619,1199,103,97,74,
11,7844388942589,611,1167,123,87,69,
11,9577394662333,642,1184,95,108,68,
12,1310400382077,664,1236,116,83,76,
12,3043406101821,642,1209,95,108,76,
12,4776411821565,659,1192,111,99,72,
12,6509417541309,669,1240,116,108,69,
12,8242423261053,641,1248,89,104,67,
12,9975428980797,628,1204,105,115,63,
13,1708434700541,603,1215,109,94,74,
13,3441440420285,582,1211,93,108,86,
13,5174446140029,618,1235,114,95,65,
13,6907451859773,615,1188,119,102,62,
13,8640457579517,648,1208,122,94,67,
14,0373463299261,671,1203,112,114,63,
14,2106469019005,647,1126,120,98,56,
14,3839474738748,673,1195,111,89,79,
14,5572480458492,639,1185,114,93,74,
14,7305486178236,663,1174,101,87,73,
14,903849189798,641,1135,106,94,69,
15,0771497617724,674,1221,119,102,68,
15,2504503337468,697,1182,132,97,81,
15,4237509057212,614,1132,99,102,61,
15,5970514776956,649,1181,112,95,68,
15,77035204967,644,1190,102,100,72,
15,9436526216444,636,1223,114,110,70,
16,1169531936188,649,1177,104,96,81,
16,2902537655932,678,1160,99,94,78,
16,4635543375676,648,1188,86,89,90,
16,636854909542,661,1142,84,84,67,
16,8101554815164,632,1193,88,91,63,
16,9834560534908,683,1172,105,95,68,
17,1567566254652,625,1243,84,96,61,
17,3300571974396,652,1250,98,106,73,
17,503357769414,640,1318,94,86,68,
17,6766583413884,623,1248,91,87,64,
17,8499589133628,594,1273,83,96,77,
18,0232594853372,575,1246,90,106,80,
18,1965600573116,620,1289,76,100,72,
18,369860629286,659,1240,85,107,70,
18,5431612012603,602,1291,71,105,67,
18,7164617732347,625,1307,77,101,66,
18,8897623452091,633,1233,84,112,70,
19,0630629171835,642,1242,64,97,85,
19,2363634891579,653,1256,74,107,70,
19,4096640611323,646,1328,85,104,73,
19,5829646331067,661,1263,65,91,81,
19,7562652050811,697,1270,66,92,71,
19,9295657770555,714,1311,66,105,65,
20,1028663490299,696,1266,76,101,88,
20,2761669210043,664,1265,65,117,66,
20,4494674929787,618,1252,65,110,74,
20,6227680649531,632,1321,79,102,85,
20,7960686369275,689,1259,70,110,71,
20,9693692089019,670,1295,72,103,83,
21,1426697808763,629,1355,52,103,87,
21,3159703528507,651,1388,66,116,64,
21,4892709248251,646,1289,56,133,71,
21,6625714967995,656,1273,67,110,98,
21,8358720687739,612,1333,52,116,80,
22,0091726407483,672,1333,58,102,66,
22,1824732127227,611,1360,64,112,89,
22,3557737846971,673,1340,62,117,100,
22,5290743566714,667,1331,60,117,93,
22,7023749286458,673,1307,55,131,84,
22,8756755006202,649,1373,49,117,79,
23,0489760725946,648,1291,38,127,75,
23,222276644569,670,1342,56,116,72,
23,3955772165434,655,1334,57,121,86,
23,5688777885178,645,1322,55,116,79,
23,7421783604922,643,1351,54,121,99,
23,9154789324666,660,1314,41,122,82,
24,088779504441,667,1356,54,118,81,
24,2620800764154,645,1392,62,106,81,
24,4353806483898,594,1335,62,109,78,
24,6086812203642,636,1365,53,108,85,
24,7819817923386,648,1375,55,119,86,
24,955282364313,638,1318,43,108,82,
25,1285829362874,638,1318,41,119,83,
25,3018835082618,613,1355,44,113,85,
25,4751840802362,656,1331,65,118,93,
25,6484846522106,710,1357,54,99,78,
25,821785224185,659,1328,61,112,84,
25,9950857961594,625,1344,57,115,78,
26,1683863681338,643,1283,61,106,78,
26,3416869401082,635,1314,73,90,70,
26,5149875120826,585,1377,60,109,93,
26,6882880840569,613,1311,62,117,84,
26,8615886560313,648,1280,65,118,83,
27,0348892280057,619,1375,63,134,82,
27,2081897999801,652,1381,48,116,93,
27,3814903719545,691,1306,55,118,75,
27,5547909439289,622,1335,52,111,95,
27,7280915159033,647,1315,53,107,92,
27,9013920878777,664,1330,53,119,81,
28,0746926598521,618,1314,55,108,71,
28,2479932318265,653,1303,49,115,79,
28,4212938038009,665,1318,49,113,75,
28,5945943757753,670,1346,61,102,77,
28,7678949477497,664,1350,58,91,78,
28,9411955197241,608,1332,59,104,73,
29,1144960916985,645,1321,62,109,86,
29,2877966636729,629,1339,55,104,76,
29,4610972356473,615,1320,53,112,77,
29,6343978076217,641,1276,52,106,70,
29,8076983795961,625,1368,55,105,65,
29,9809989515705,653,1370,58,118,96,
30,1542995235449,647,1313,56,116,76,
30,3276000955193,632,1381,47,112,79,
30,5009006674937,632,1358,59,95,94,
30,6742012394681,626,1287,59,124,79,
30,8475018114424,612,1317,50,107,82,
31,0208023834168,643,1369,55,114,70,
31,1941029553912,680,1347,57,106,91,
31,3674035273656,679,1378,51,107,71,
31,54070409934,637,1368,67,100,86,
31,7140046713144,646,1336,59,99,97,
31,8873052432888,687,1318,53,108,85,
32,0606058152632,719,1355,52,111,68,
32,2339063872376,672,1271,58,98,77,
32,407206959212,679,1319,57,119,82,
32,5805075311864,729,1267,60,118,92,
32,7538081031608,668,1296,59,124,81,
32,9271086751352,682,1306,46,100,95,
33,1004092471096,677,1293,45,99,80,
33,273709819084,626,1311,60,101,92,
33,4470103910584,661,1320,55,104,102,
33,6203109630328,711,1311,58,105,84,
33,7936115350072,665,1278,35,106,87,
33,9669121069816,709,1358,38,101,71,
34,140212678956,718,1332,56,118,76,
34,3135132509304,706,1362,55,110,83,
34,4868138229048,684,1368,63,119,89,
34,6601143948792,711,1377,44,124,90,
34,8334149668536,651,1358,45,98,84,
35,0067155388279,657,1280,51,106,78,
35,1800161108023,639,1347,54,95,89,
35,3533166827767,632,1367,46,131,92,
35,5266172547511,681,1342,62,115,92,
35,6999178267255,665,1310,61,120,84,
35,8732183986999,680,1326,48,137,83,
36,0465189706743,659,1341,63,110,76,
36,2198195426487,706,1352,42,116,85,
36,3931201146231,694,1326,55,122,61,
36,5664206865975,669,1328,55,130,85,
36,7397212585719,683,1338,43,121,68,
36,9130218305463,701,1311,48,129,83,
37,0863224025207,684,1392,52,108,76,
37,2596229744951,644,1396,52,105,73,
37,4329235464695,648,1404,67,115,80,
37,6062241184439,643,1432,52,100,90,
37,7795246904183,641,1361,38,117,86,
37,9528252623927,656,1384,52,107,83,
38,1261258343671,639,1338,51,105,85,
38,2994264063415,692,1316,51,118,95,
38,4727269783159,656,1337,59,95,66,
38,6460275502902,627,1299,43,107,80,
38,8193281222647,654,1336,54,111,80,
38,992628694239,683,1384,46,112,85,
39,1659292662134,636,1307,41,125,70,
39,3392298381878,675,1347,47,100,81,
39,5125304101622,668,1243,49,117,83,
39,6858309821366,665,1330,46,111,85,
39,859131554111,607,1329,44,93,64,
40,0324321260854,582,1314,48,105,94,
40,2057326980598,615,1340,56,100,71,
40,3790332700342,583,1368,38,111,87,
40,5523338420086,612,1339,53,104,91,
40,725634413983,592,1372,46,110,90,
40,8989349859574,598,1355,55,106,83,
41,0722355579318,618,1377,51,102,83,
41,2455361299062,647,1426,53,106,70,
41,4188367018806,576,1380,46,107,79,
41,592137273855,645,1379,36,121,84,
41,7654378458294,645,1298,54,122,87,
41,9387384178038,625,1278,43,117,82,
42,1120389897782,613,1339,38,107,92,
42,2853395617526,635,1331,56,124,74,
42,458640133727,622,1357,40,91,86,
42,6319407057014,609,1398,43,101,78,
42,8052412776757,610,1327,49,98,78,
42,9785418496501,648,1362,47,114,81,
43,1518424216245,597,1365,49,106,78,
43,2384927076117,603,1340,52,111,88,