Folder: ELO-inclusion-detection/images/SEM_EDX_20220411/W10_Detail_2

Note: README.md
# ELO-inclusion-detection
Code and data related to my article: XYZ

Page still in progress...

File: Liniendaten 2.csv
Abstand (µm),Decimals,Al Kα1,Ti Kα1,Nb Lα1,Ta Lα1,
0,0,363,890,67,12,
0,200690399066431,323,857,55,10,
0,401380798132862,321,884,59,5,
0,602071197199293,373,861,72,7,
0,802761596265724,347,858,75,8,
1,00345199533215,361,875,60,12,
1,20414239439858,372,887,81,16,
1,40483279346502,379,846,69,7,
1,60552319253145,378,876,68,9,
1,80621359159788,392,878,72,11,
2,00690399066431,375,886,65,16,
2,20759438973074,359,856,64,7,
2,40828478879717,352,809,85,18,
2,6089751878636,395,828,55,9,
2,80966558693003,365,858,82,12,
3,01035598599646,347,861,68,7,
3,21104638506289,378,906,71,5,
3,41173678412933,380,887,59,4,
3,61242718319576,395,810,75,7,
3,81311758226219,366,858,69,14,
4,01380798132862,389,872,58,10,
4,21449838039505,382,884,68,3,
4,41518877946148,344,838,60,12,
4,61587917852791,347,880,67,9,
4,81656957759434,349,866,76,10,
5,01725997666077,351,887,73,9,
5,2179503757272,328,887,47,8,
5,41864077479363,365,880,64,8,
5,61933117386007,369,839,55,10,
5,8200215729265,353,812,66,6,
6,02071197199292,352,841,57,11,
6,22140237105936,356,845,57,5,
6,42209277012579,380,843,74,11,
6,62278316919222,359,873,72,15,
6,82347356825865,380,814,66,9,
7,02416396732508,373,831,69,9,
7,22485436639152,376,931,87,13,
7,42554476545794,381,884,77,9,
7,62623516452437,349,914,64,8,
7,82692556359081,358,867,69,10,
8,02761596265724,376,836,62,6,
8,22830636172366,349,855,74,9,
8,4289967607901,358,878,69,12,
8,62968715985653,328,870,56,10,
8,83037755892296,325,848,60,10,
9,03106795798939,354,831,76,12,
9,23175835705582,389,851,70,6,
9,43244875612225,351,815,75,10,
9,63313915518868,360,884,76,8,
9,83382955425512,329,871,65,9,
10,0345199533215,371,827,66,5,
10,235210352388,336,898,78,7,
10,4359007514544,364,849,63,8,
10,6365911505208,413,905,76,7,
10,8372815495873,349,876,74,11,
11,0379719486537,354,831,52,10,
11,2386623477201,350,858,62,10,
11,4393527467866,365,931,70,8,
11,640043145853,376,849,69,12,
11,8407335449194,395,822,78,8,
12,0414239439859,368,852,68,7,
12,2421143430523,371,892,68,8,
12,4428047421187,402,838,71,10,
12,6434951411851,376,891,74,7,
12,8441855402516,382,937,68,10,
13,044875939318,419,823,85,12,
13,2455663383844,401,843,80,8,
13,4462567374509,421,862,61,7,
13,6469471365173,382,869,72,10,
13,8476375355837,386,845,75,8,
14,0483279346502,369,896,74,7,
14,2490183337166,375,827,78,12,
14,449708732783,366,817,67,5,
14,6503991318495,379,798,76,10,
14,8510895309159,374,849,78,7,
15,0517799299823,349,856,65,13,
15,2524703290488,395,840,81,8,
15,4531607281152,380,850,49,15,
15,6538511271816,379,883,67,14,
15,854541526248,361,811,70,19,
16,0552319253145,337,858,58,20,
16,2559223243809,340,872,72,17,
16,4566127234473,356,803,62,17,
16,6573031225138,342,817,57,27,
16,8579935215802,349,827,60,32,
17,0586839206466,347,794,64,29,
17,2593743197131,353,739,55,39,
17,4600647187795,342,757,65,49,
17,6607551178459,321,756,52,46,
17,8614455169124,292,725,55,44,
18,0621359159788,343,676,50,56,
18,2628263150452,280,733,44,68,
18,4635167141116,252,674,41,67,
18,6642071131781,258,640,42,85,
18,8648975122445,238,622,34,96,
19,0655879113109,251,604,34,111,
19,2662783103774,226,529,35,126,
19,4669687094438,208,475,31,95,
19,6676591085102,194,463,21,116,
19,8683495075767,225,502,27,133,
20,0690399066431,215,514,29,131,
20,2697303057095,175,478,33,124,
20,470420704776,190,424,23,125,
20,6711111038424,119,367,18,162,
20,8718015029088,125,413,10,141,
21,0724919019752,108,404,19,145,
21,2731823010417,151,399,13,162,
21,4738727001081,143,398,25,132,
21,6745630991745,116,387,15,150,
21,875253498241,123,414,15,127,
22,0759438973074,199,479,22,139,
22,2766342963738,215,447,24,136,
22,4773246954403,220,434,30,137,
22,6780150945067,216,494,31,103,
22,8787054935731,240,480,41,139,
23,0793958926396,255,545,39,130,
23,280086291706,286,587,44,122,
23,4807766907724,256,557,46,124,
23,6814670898388,285,562,38,137,
23,8821574889053,274,582,46,116,
24,0828478879717,287,621,41,130,
24,2835382870381,296,547,55,104,
24,4842286861046,299,646,40,116,
24,684919085171,276,631,55,114,
24,8856094842374,273,603,53,123,
25,0862998833039,283,666,55,106,
25,2869902823703,282,638,54,116,
25,4876806814367,291,657,42,111,
25,6883710805032,297,637,49,117,
25,8890614795696,297,643,58,105,
26,089751878636,309,655,39,120,
26,2904422777024,302,722,50,96,
26,4911326767689,326,669,47,68,
26,6918230758353,298,721,56,77,
26,8925134749017,327,748,53,61,
27,0932038739682,305,766,48,76,
27,2938942730346,323,759,56,68,
27,494584672101,343,741,58,57,
27,6952750711675,349,807,66,63,
27,8959654702339,373,740,63,57,
28,0966558693003,360,794,67,52,
28,2973462683668,401,737,59,43,
28,4980366674332,372,785,68,44,
28,6987270664996,401,745,48,40,
28,8994174655661,382,771,70,44,
29,1001078646325,446,770,63,52,
29,3007982636989,379,819,72,38,
29,5014886627653,379,828,57,46,
29,7021790618318,404,765,63,42,
29,9028694608982,369,799,63,42,
30,1035598599646,377,848,60,28,
30,3042502590311,399,757,62,32,
30,5049406580975,400,751,58,35,
30,7056310571639,419,776,61,31,
30,9063214562304,389,813,56,38,
31,1070118552968,357,833,64,37,
31,3077022543632,384,790,71,30,
31,5083926534297,384,749,50,24,
31,7090830524961,366,760,53,39,
31,9097734515625,355,799,71,40,
32,1104638506289,373,807,64,26,
32,3111542496954,375,815,67,29,
32,5118446487618,372,816,62,30,
32,7125350478282,383,795,66,34,
32,9132254468947,334,811,63,26,
33,1139158459611,374,863,60,24,
33,3146062450275,353,800,65,35,
33,515296644094,390,789,53,30,
33,7159870431604,379,850,62,19,
33,9166774422268,360,741,67,34,
34,1173678412933,367,803,50,26,
34,3180582403597,349,857,71,21,
34,5187486394261,344,829,61,24,
34,7194390384926,308,850,65,24,
34,920129437559,353,820,69,23,
35,1208198366254,317,774,62,18,
35,3215102356918,332,823,61,20,
35,5222006347583,316,812,63,26,
35,7228910338247,303,862,57,23,
35,9235814328911,339,876,56,23,
36,1242718319576,345,787,50,21,
36,324962231024,304,826,54,22,
36,5256526300904,315,882,56,16,
36,7263430291569,338,808,53,23,
36,9270334282233,333,914,65,23,
37,1277238272897,346,831,71,19,
37,3284142263561,328,877,63,27,
37,5291046254226,367,830,46,24,
37,729795024489,335,844,70,18,
37,9304854235554,381,815,80,22,
38,1311758226219,407,856,79,29,
38,3318662216883,357,798,68,11,
38,5325566207547,406,805,65,30,
38,7332470198212,377,805,66,24,
38,9339374188876,392,812,58,22,
39,134627817954,388,830,68,20,
39,3353182170205,327,823,69,25,
39,5360086160869,402,787,52,23,
39,7366990151533,350,803,52,15,
39,9373894142198,370,801,57,21,
40,1380798132862,366,829,66,17,
40,3387702123526,351,821,75,27,
40,5394606114191,347,813,58,21,
40,7401510104855,353,837,56,18,
40,9408414095519,355,808,64,21,
41,1415318086183,347,815,70,17,
41,3422222076848,348,830,65,16,
41,5429126067512,363,828,55,19,
41,7436030058176,349,803,59,17,
41,9442934048841,364,780,55,24,
42,1449838039505,324,859,51,18,
42,3456742030169,397,817,66,14,
42,5463646020834,396,841,66,25,
42,7470550011498,359,782,56,20,
42,9477454002162,347,790,73,18,
43,1484357992827,365,803,65,21,
43,3491261983491,370,868,61,18,
43,5498165974155,350,841,70,23,
43,7505069964819,350,830,65,22,
43,9511973955484,390,839,65,22,
44,1518877946148,353,770,53,18,
44,3525781936812,315,802,59,22,
44,5532685927477,358,753,59,15,
44,7539589918141,382,817,55,20,
44,9546493908805,415,790,80,19,
45,155339789947,375,847,56,21,
45,3560301890134,341,819,46,17,
45,5567205880798,370,807,59,20,
45,7574109871463,380,807,74,14,
45,9581013862127,358,846,58,8,
46,1587917852791,353,861,66,19,
46,3594821843455,355,834,65,20,
46,560172583412,350,808,68,18,
46,7608629824784,345,827,74,15,
46,9615533815448,364,830,67,15,
47,1622437806113,393,836,60,17,
47,3629341796777,380,817,62,28,
47,5636245787441,356,817,63,20,
47,7643149778106,372,833,65,22,
47,965005376877,404,797,60,22,
48,1656957759434,374,775,75,15,
48,3663861750099,361,787,60,15,
48,5670765740763,361,817,54,17,
48,7677669731427,395,841,64,18,
48,9684573722091,354,844,56,19,
49,1691477712756,349,883,66,19,
49,369838170342,361,847,76,10,
49,5705285694084,369,814,58,19,
49,7712189684749,362,827,65,16,
49,9719093675413,350,862,66,10,
50,0722545670745,343,804,63,13,